File: V44/Daten/UXD/MessungProbe.UXD
; C:\DIFFDAT1\Praktikum\Boussard_Oppoli\MessungProbe.raw(Diffrac Plus V1.01 file) converted by XCH V1.0
_FILEVERSION=2
_SITE='Deutschland'
_USER='Administrator'
_GONIOMETER_CODE=4885
; D8 Theta/Theta; Special
_SAMPLE_CHANGER_CODE=0
_ATTACHMENTS_CODE=0
_GONIOMETER_RADIUS=350
_FIXED_DIVSLIT=0.600000
_FIXED_SAMPLESLIT=0.000000
_FIXED_DETSLIT=11.66
_MONOCHROMATOR=0
; None
_THIN_FILM='N'
_BETA_FILTER='Y'
_FIXED_ANTISLIT=8.340000
_ANALYZER_CODE=0
; None
_DATEMEASURED='22-Apr-2024 11:11:20'
_WL_UNIT='A'
_WL1=1.540600
_WL2=1.544390
_WL3=1.392220
_WLRATIO=0.500000
_ANODE='Cu'
; (Data for Range number 1)
_DRIVE='THETA'
_STEPTIME=5.000660
_STEPSIZE=0.005000
_STEPMODE='C'
_START=0.000000
_THETA=0.000000
_2THETA=0.000000
_KHI=0.000000
_PHI=92.46
_X=-0.513000
_Y=-1.200000
_Z=0.238000
_DIVERGENCE=0.000000
_ANTISCATTER=0.000000
_DETECTOR=5
_DETECTORSLIT='unkn'
_AUX1=0.000000
_AUX2=0.000000
_AUX3=0.000000
_TIMESTARTED=3.000000
_TEMP_RATE=-1.000000
_TEMP_DELAY=-1.000000
_KV=40
_MA=35
_RANGE_WL=1.540600
_3DPLANE=0
_GONIOMETER=-0.002400
_PSDCHANNEL0=0
_2THETACOUNTS
   0.0000   1222960
   0.0050   1619100
   0.0100   1687960
   0.0150   1353210
   0.0200    924426
   0.0250    626225
   0.0300    552641
   0.0350    495907
   0.0400    443451
   0.0450    425004
   0.0500    428098
   0.0550    420349
   0.0600    424132
   0.0650    429956
   0.0700    450474
   0.0750    476557
   0.0800    491517
   0.0850    515983
   0.0900    522818
   0.0950    529674
   0.1000    546124
   0.1050    569178
   0.1100    589555
   0.1150    612321
   0.1200    632744
   0.1250    651765
   0.1300    674621
   0.1350    694421
   0.1400    715090
   0.1450    733347
   0.1500    751023
   0.1550    757146
   0.1600    740712
   0.1650    725681
   0.1700    744582
   0.1750    777775
   0.1800    786968
   0.1850    787460
   0.1900    816347
   0.1950    852055
   0.2000    864532
   0.2050    849706
   0.2100    819128
   0.2150    788288
   0.2200    732105
   0.2250    624673
   0.2300    467521
   0.2350    312009
   0.2400    194684
   0.2450    127029
   0.2500    102266
   0.2550    103840
   0.2600    109702
   0.2650    107849
   0.2700     93195
   0.2750     71606
   0.2800     49174
   0.2850     33265
   0.2900     26857
   0.2950     29073
   0.3000     34842
   0.3050     40056
   0.3100     41005
   0.3150     36902
   0.3200     29022
   0.3250     20996
   0.3300     14511
   0.3350     11906
   0.3400     12625
   0.3450     15312
   0.3500     18423
   0.3550     19909
   0.3600     19230
   0.3650     16733
   0.3700     12952
   0.3750      9345
   0.3800      6647
   0.3850      6264
   0.3900      6935
   0.3950      8655
   0.4000     10353
   0.4050     10807
   0.4100     10192
   0.4150      8961
   0.4200      6826
   0.4250      5039
   0.4300      3773
   0.4350      3518
   0.4400      4112
   0.4450      4941
   0.4500      5831
   0.4550      6249
   0.4600      5987
   0.4650      5145
   0.4700      3972
   0.4750      2864
   0.4800      2284
   0.4850      2078
   0.4900      2365
   0.4950      2788
   0.5000      3447
   0.5050      3681
   0.5100      3547
   0.5150      3159
   0.5200      2558
   0.5250      1982
   0.5300      1496
   0.5350      1237
   0.5400      1388
   0.5450      1732
   0.5500      1996
   0.5550      2331
   0.5600      2277
   0.5650      2172
   0.5700      1786
   0.5750      1340
   0.5800      1021
   0.5850       834
   0.5900       850
   0.5950      1038
   0.6000      1201
   0.6050      1404
   0.6100      1420
   0.6150      1378
   0.6200      1256
   0.6250      1030
   0.6300       742
   0.6350       561
   0.6400       518
   0.6450       639
   0.6500       724
   0.6550       891
   0.6600      1033
   0.6650      1031
   0.6700       942
   0.6750       751
   0.6800       561
   0.6850       430
   0.6900       399
   0.6950       370
   0.7000       478
   0.7050       553
   0.7100       712
   0.7150       661
   0.7200       694
   0.7250       594
   0.7300       466
   0.7350       337
   0.7400       292
   0.7450       257
   0.7500       335
   0.7550       385
   0.7600       414
   0.7650       444
   0.7700       482
   0.7750       441
   0.7800       365
   0.7850       306
   0.7900       224
   0.7950       180
   0.8000       216
   0.8050       227
   0.8100       270
   0.8150       295
   0.8200       321
   0.8250       340
   0.8300       289
   0.8350       223
   0.8400       176
   0.8450       147
   0.8500       139
   0.8550       147
   0.8600       184
   0.8650       243
   0.8700       222
   0.8750       218
   0.8800       202
   0.8850       210
   0.8900       142
   0.8950       136
   0.9000       102
   0.9050       100
   0.9100       121
   0.9150       132
   0.9200       149
   0.9250       169
   0.9300       153
   0.9350       136
   0.9400       126
   0.9450        96
   0.9500        82
   0.9550        89
   0.9600        73
   0.9650        89
   0.9700       104
   0.9750       109
   0.9800       133
   0.9850       126
   0.9900       121
   0.9950        83
   1.0000        74
   1.0050        45
   1.0100        59
   1.0150        61
   1.0200        74
   1.0250        66
   1.0300        95
   1.0350        89
   1.0400        80
   1.0450        74
   1.0500        54
   1.0550        43
   1.0600        44
   1.0650        34
   1.0700        43
   1.0750        65
   1.0800        85
   1.0850        70
   1.0900        91
   1.0950        53
   1.1000        50
   1.1050        37
   1.1100        27
   1.1150        31
   1.1200        23
   1.1250        34
   1.1300        35
   1.1350        44
   1.1400        47
   1.1450        45
   1.1500        27
   1.1550        41
   1.1600        21
   1.1650        33
   1.1700        21
   1.1750        18
   1.1800        25
   1.1850        33
   1.1900        37
   1.1950        34
   1.2000        34
   1.2050        30
   1.2100        25
   1.2150        18
   1.2200        18
   1.2250        14
   1.2300        21
   1.2350        28
   1.2400        23
   1.2450        23
   1.2500        22
   1.2550        23
   1.2600        24
   1.2650        13
   1.2700        18
   1.2750         8
   1.2800        10
   1.2850        20
   1.2900        16
   1.2950        21
   1.3000        20
   1.3050        12
   1.3100        20
   1.3150        17
   1.3200        10
   1.3250         9
   1.3300        15
   1.3350         8
   1.3400        13
   1.3450        12
   1.3500        12
   1.3550        15
   1.3600        11
   1.3650         9
   1.3700        11
   1.3750        13
   1.3800        17
   1.3850        14
   1.3900        11
   1.3950        10
   1.4000        12
   1.4050         6
   1.4100        14
   1.4150        10
   1.4200        11
   1.4250         3
   1.4300        11
   1.4350         2
   1.4400         3
   1.4450        11
   1.4500         6
   1.4550        12
   1.4600        13
   1.4650         9
   1.4700         4
   1.4750         9
   1.4800         4
   1.4850         9
   1.4900         7
   1.4950        12
   1.5000         7
   1.5050         7
   1.5100         3
   1.5150         2
   1.5200         8
   1.5250         9
   1.5300         2
   1.5350         5
   1.5400         2
   1.5450         5
   1.5500         8
   1.5550         5
   1.5600         7
   1.5650         5
   1.5700         4
   1.5750         3
   1.5800         5
   1.5850         3
   1.5900         6
   1.5950         3
   1.6000         0
   1.6050         4
   1.6100         3
   1.6150         4
   1.6200         2
   1.6250         7
   1.6300         2
   1.6350         2
   1.6400         4
   1.6450         2
   1.6500         1
   1.6550         3
   1.6600         5
   1.6650         2
   1.6700         7
   1.6750         3
   1.6800         2
   1.6850         2
   1.6900         1
   1.6950         5
   1.7000         2
   1.7050         2
   1.7100         0
   1.7150         1
   1.7200         4
   1.7250         3
   1.7300         4
   1.7350         1
   1.7400         2
   1.7450         1
   1.7500         3
   1.7550         1
   1.7600         2
   1.7650         0
   1.7700         3
   1.7750         0
   1.7800         0
   1.7850         1
   1.7900         1
   1.7950         1
   1.8000         0
   1.8050         3
   1.8100         4
   1.8150         3
   1.8200         3
   1.8250         1
   1.8300         0
   1.8350         0
   1.8400         2
   1.8450         3
   1.8500         2
   1.8550         0
   1.8600         1
   1.8650         1
   1.8700         3
   1.8750         0
   1.8800         0
   1.8850         0
   1.8900         0
   1.8950         1
   1.9000         2
   1.9050         2
   1.9100         0
   1.9150         4
   1.9200         0
   1.9250         0
   1.9300         1
   1.9350         1
   1.9400         0
   1.9450         1
   1.9500         2
   1.9550         0
   1.9600         1
   1.9650         2
   1.9700         2
   1.9750         1
   1.9800         4
   1.9850         1
   1.9900         1
   1.9950         0
   2.0000         0
   2.0050         0
   2.0100         1
   2.0150         0
   2.0200         0
   2.0250         0
   2.0300         3
   2.0350         1
   2.0400         1
   2.0450         0
   2.0500         1
   2.0550         2
   2.0600         0
   2.0650         2
   2.0700         0
   2.0750         0
   2.0800         0
   2.0850         1
   2.0900         1
   2.0950         1
   2.1000         0
   2.1050         1
   2.1100         1
   2.1150         0
   2.1200         1
   2.1250         0
   2.1300         0
   2.1350         0
   2.1400         0
   2.1450         0
   2.1500         1
   2.1550         0
   2.1600         0
   2.1650         2
   2.1700         1
   2.1750         1
   2.1800         0
   2.1850         0
   2.1900         1
   2.1950         1
   2.2000         0
   2.2050         0
   2.2100         1
   2.2150         0
   2.2200         0
   2.2250         0
   2.2300         1
   2.2350         0
   2.2400         0
   2.2450         0
   2.2500         2
   2.2550         0
   2.2600         0
   2.2650         0
   2.2700         0
   2.2750         1
   2.2800         0
   2.2850         0
   2.2900         1
   2.2950         0
   2.3000         0
   2.3050         0
   2.3100         1
   2.3150         0
   2.3200         2
   2.3250         1
   2.3300         1
   2.3350         0
   2.3400         1
   2.3450         1
   2.3500         0
   2.3550         0
   2.3600         2
   2.3650         0
   2.3700         0
   2.3750         0
   2.3800         1
   2.3850         0
   2.3900         1
   2.3950         0
   2.4000         0
   2.4050         0
   2.4100         0
   2.4150         1
   2.4200         0
   2.4250         0
   2.4300         1
   2.4350         0
   2.4400         0
   2.4450         0
   2.4500         0
   2.4550         0
   2.4600         0
   2.4650         1
   2.4700         0
   2.4750         1
   2.4800         1
   2.4850         0
   2.4900         0
   2.4950         0
   2.5000         0